Folder: TIF326-Physics-of-materials-Lab/Tensile LDPE/data

File: Tensile_testing_LDPE_CD_Data_CD_strain_percent_stress_MPa.csv
Strain1[%],Stress1[MPa],Strain2,Stress2,Strain3,Stress3,Strain4,Stress4,Strain5,Stress5,Strain6,Stress6,Strain7,Stress7,Strain8,Stress8,Strain9,Stress9,Strain10,Stress10
0,0.618992,0,0.612641,0,0.588768,0,0.609592,0,0.612566,0,0.608254,0,0.596968,0,0.596497,0,0.61358,0,0.588177
0.0618978,0.931129,0.105411,1.07494,0.109955,1.05678,-7.61541e-07,0.608795,0.0943651,0.981951,0.0563976,0.878021,0.072457,0.948166,0.0616243,0.9047,0.12749,1.15147,0.138534,1.17718
1.51288,4.96134,1.55976,4.99128,1.55408,4.94728,1.35145,4.28916,1.54832,4.73629,1.50267,4.66363,1.52272,4.90143,1.50596,4.94187,1.57881,5.10808,1.58937,5.04735
2.96698,7.18417,3.01532,7.1459,2.99893,7.15991,2.80404,6.50626,3.00373,6.86183,2.95251,6.79353,2.97579,7.07428,2.95373,7.21351,3.031,7.34005,3.04059,7.21432
4.42129,8.47997,4.47099,8.40636,4.44364,8.49456,4.25666,7.82726,4.45946,8.12866,4.40261,8.06461,4.4288,8.34038,4.401777,8.56451,4.4831,8.66485,4.49199,8.496
5.87563,9.20259,5.92631,9.11497,5.88871,9.27283,5.70897,8.59195,5.91463,8.85558,5.85235,8.79612,5.88155,9.04802,5.84934,9.33242,5.93502,9.41943,5.94318,9.22653
7.32976,9.55044,7.38201,9.45999,7.33331,9.67495,7.16173,8.98295,7.37022,9.22196,7.30218,9.16676,7.33454,9.39198,7.29754,9.71787,7.3872,9.79724,7.39435,9.58639
8.78411,9.65914,8.83753,9.57556,8.77822,9.82624,8.61413,9.13352,8.82576,9.35502,8.75229,9.3027,8.78745,9.50354,8.74522,9.85133,8.83952,9.92122,8.84573,9.70838
10.2384,9.62759,10.293,9.55559,10.2231,9.82618,10.0667,9.1372,10.2812,9.34932,10.202,9.29767,10.2402,9.47992,10.1927,9.83373,10.2914,9.90002,10.2969,9.68717
11.6925,9.53,11.7487,9.46793,11.6678,9.75079,11.5194,9.06833,11.7367,9.2708,11.652,9.22464,11.6933,9.39105,11.6407,9.74133,11.7434,9.80672,11.748,9.59906
13.1467,9.41799,13.2041,9.36353,13.1128,9.64583,12.9717,8.97038,13.1922,9.17378,13.1021,9.12964,13.1462,9.28461,13.0885,9.6282,13.1956,9.69331,13.1995,9.48943
14.6011,9.31641,14.6598,9.2665,14.5577,9.54271,14.4244,8.87727,14.6476,9.08049,14.5518,9.03615,14.5993,9.18695,14.5361,9.51899,14.6475,9.58601,14.6506,9.38689
16.0553,9.23937,16.1152,9.1906,16.0024,9.4566,15.8768,8.80355,16.1031,9.00457,16.0019,8.96415,16.0522,9.10854,15.9841,9.42858,16.0997,9.50047,16.102,9.30881
17.5096,9.1912,17.5707,9.14113,17.4475,9.39935,17.3292,8.75539,17.5585,8.95451,17.4518,8.91585,17.5049,9.0568,17.4318,9.36434,17.5517,9.44316,17.5534,9.25536
18.9638,9.17127,19.0263,9.11491,18.8921,9.3683,18.7819,8.73059,19.014,8.92877,18.9015,8.89432,18.9579,9.03187,18.8797,9.32715,19.004,9.41633,19.0044,9.23097
20.4182,9.17331,20.4819,9.11326,20.3369,9.35824,20.2345,8.7289,20.4697,8.92769,20.3516,8.89413,20.4107,9.02826,20.3276,9.31066,20.4561,9.41042,20.4557,9.22951
21.8724,9.18922,21.9374,9.12589,21.7819,9.36923,21.687,8.74378,21.925,8.94219,21.8014,8.91015,21.8636,9.04569,21.775,9.31644,21.908,9.42384,21.9069,9.24231
23.3265,9.21935,23.3932,9.15346,23.2265,9.39137,23.1397,8.77089,23.3807,8.9741,23.2513,8.93609,23.3167,9.06604,23.2232,9.33499,23.36,9.44831,23.3581,9.2686
24.7809,9.25306,24.8485,9.18813,24.6716,9.4206,24.5919,8.80578,24.836,9.01378,24.7015,8.96962,24.7696,9.09909,24.6708,9.36213,24.8123,9.47726,24.8096,9.29985
26.235,9.29061,26.3041,9.22751,26.1165,9.4577,26.0446,8.84476,26.2914,9.05676,26.1512,9.0063,26.2226,9.1421,26.1183,9.39552,26.2641,9.51225,26.2607,9.33787
27.6893,9.32848,27.7597,9.26685,27.5613,9.49781,27.4972,8.88639,27.747,9.10152,27.6012,9.04544,27.6755,9.18188,27.5666,9.43284,27.7163,9.54961,27.712,9.37719
29.1435,9.36661,29.2149,9.30716,29.0062,9.54084,28.9494,8.92562,29.2022,9.14378,29.0512,9.08726,29.1282,9.22062,29.0143,9.47015,29.1685,9.58852,29.1634,9.41629
30.598,9.40528,30.6707,9.34805,30.4508,9.58237,30.4023,8.96805,30.6579,9.18629,30.5008,9.12824,30.5813,9.25988,30.462,9.51091,30.6204,9.6277,30.6143,9.45582
32.0522,9.44445,32.1263,9.38867,31.8956,9.6216,31.8547,9.00813,32.1135,9.22724,31.9509,9.16839,32.0341,9.3012,31.9099,9.55101,32.0726,9.66658,32.0657,9.49532
33.5062,9.4809,33.5817,9.42512,33.3407,9.65959,33.3072,9.04563,33.5688,9.26661,33.4008,9.20487,33.487,9.33794,33.3574,9.58669,33.5245,9.70347,33.5171,9.52827
34.9605,9.51168,35.0374,9.45772,34.7854,9.69087,34.7599,9.08119,35.0243,9.30129,34.8508,9.23886,34.9401,9.37035,34.8053,9.61571,34.9767,9.73306,34.9683,9.55812
36.4149,9.53812,36.4928,9.4882,36.2304,9.72093,36.2122,9.11304,36.4799,9.33113,36.3008,9.2709,36.3929,9.4006,36.2532,9.6426,36.4288,9.7624,36.4197,9.58877
37.869,9.56083,37.9483,9.51348,37.6753,9.74584,37.6648,9.13998,37.9352,9.35607,37.7506,9.29771,37.8459,9.42546,37.7009,9.66439,37.8807,9.78451,37.8708,9.61215
39.3233,9.58042,39.404,9.53573,39.1199,9.77128,39.1174,9.16283,39.3909,9.38033,39.2005,9.32129,39.2987,9.44752,39.1491,9.68465,39.3331,9.80296,39.322,9.63105
40.7778,9.59898,40.8594,9.55701,40.5648,9.78962,40.5698,9.18474,40.8462,9.40413,40.6505,9.34357,40.7518,9.46697,40.5966,9.70374,40.7853,9.82282,40.7734,9.64757
42.2318,9.61344,42.3152,9.57397,42.0096,9.80322,42.0226,9.20377,42.3018,9.42164,42.1002,9.35659,42.2046,9.48009,42.0443,9.71458,42.237,9.83801,42.2244,9.66111
43.6861,9.62354,43.7707,9.58697,43.4545,9.81384,43.4751,9.21677,43.7574,9.43767,43.5502,9.36817,43.6575,9.48893,43.4923,9.72287,43.6892,9.84464,43.6758,9.67141
45.1402,9.6294,45.226,9.59495,44.8995,9.82204,44.9274,9.22494,45.2126,9.45096,45.0003,9.37806,45.1105,9.49809,44.9399,9.72679,45.1411,9.84634,45.1272,9.67815
46.5946,9.63046,46.6817,9.59896,46.3442,9.82639,46.3801,9.23155,46.6682,9.45975,46.4501,9.38201,46.5636,9.50519,46.3878,9.72962,46.5932,9.84891,46.5783,9.68358
48.0489,9.63141,48.1371,9.60109,47.7892,9.82867,47.8324,9.23558,48.1236,9.46524,47.9001,9.38578,48.0162,9.50743,47.8356,9.73183,48.0455,9.84842,48.0297,9.6839
49.503,9.62909,49.5927,9.60075,49.234,9.82841,49.285,9.23654,49.579,9.47075,49.3498,9.38828,49.4693,9.51023,49.2833,9.72969,49.4973,9.84416,49.4809,9.68111
50.9574,9.6249,51.0484,9.59866,50.6786,9.82108,50.7377,9.23522,51.0346,9.47419,50.7999,9.38575,50.9221,9.50799,50.7313,9.72593,50.9498,9.83923,50.9321,9.67544
52.4118,9.61678,52.5038,9.5945,52.1236,9.81302,52.1901,9.22968,52.4901,9.47544,52.2498,9.38104,52.3749,9.50379,52.1789,9.71786,52.4018,9.83033,52.3834,9.66786
53.8658,9.60285,53.9595,9.58585,53.5685,9.80769,53.6429,9.22246,53.9456,9.4749,53.6995,9.37227,53.828,9.4977,53.6266,9.70724,53.8534,9.81581,53.8344,9.65894
55.3201,9.58928,55.415,9.5763,55.0132,9.79893,55.0953,9.2137,55.4012,9.4722,55.1497,9.36546,55.2809,9.48912,55.0747,9.69462,55.3059,9.8014,55.2859,9.64611
56.7744,9.5707,56.8703,9.56304,56.4582,9.78931,56.5476,9.2012,56.8564,9.46762,56.5995,9.35626,56.734,9.47653,56.5222,9.6836,56.758,9.7871,56.7372,9.63158
58.2284,9.5528,58.3261,9.54729,57.903,9.77775,58.0004,9.1876,58.3121,9.46117,58.0494,9.34411,58.1869,9.46438,57.9701,9.66714,58.2098,9.76909,58.1884,9.61361
59.6829,9.53359,59.7815,9.5297,59.3479,9.76181,59.4527,9.17328,59.7675,9.45232,59.4994,9.3271,59.6395,9.4481,59.4181,9.64879,59.6622,9.74845,59.6397,9.59473
61.137,9.51141,61.237,9.51116,60.7927,9.74423,60.9052,9.1583,61.2228,9.44304,60.9493,9.31034,61.0926,9.42894,60.8657,9.62981,61.114,9.72585,61.091,9.57196
62.5915,9.4854,62.6928,9.48766,62.2374,9.72409,62.358,9.13771,62.6786,9.42934,62.3992,9.29099,62.5457,9.40986,62.3136,9.60559,62.5662,9.69834,62.542,9.55147
64.0457,9.45989,64.1481,9.46187,63.6824,9.70462,63.8103,9.11833,64.1339,9.41369,63.8491,9.2666,63.9983,9.38718,63.7613,9.57891,64.0184,9.67076,63.9935,9.52582
65.4996,9.43494,65.6038,9.43355,65.1272,9.68512,65.263,9.09596,65.5894,9.39636,65.299,9.242,65.4514,9.36126,65.209,9.55157,65.4702,9.64126,65.4446,9.5004
66.9541,9.40918,67.0594,9.40647,66.572,9.65949,66.7155,9.0718,67.045,9.37692,66.7491,9.2128,66.9043,9.33524,66.6569,9.5247,66.9226,9.61066,66.896,9.47252
68.4085,9.38056,68.5148,9.3758,68.017,9.63339,68.1679,9.04771,68.5003,9.35664,68.1989,9.18277,68.3571,9.30598,68.1047,9.49287,68.3745,9.57777,68.3474,9.43974
69.8624,9.35181,69.9704,9.34054,69.4619,9.60258,69.6206,9.02045,69.9558,9.33192,69.6487,9.14598,69.8102,9.2723,69.5525,9.45747,69.8265,9.53923,69.7984,9.40046
71.317,9.31755,71.4259,9.30354,70.9065,9.57039,71.073,8.98962,71.4113,9.30512,71.0988,9.10526,71.2629,9.23308,71.0005,9.4196,71.2789,9.49505,71.2498,9.35421
72.7711,9.27904,72.8814,9.26519,72.3514,9.53298,72.5255,8.95598,72.8667,9.27911,72.5485,9.06269,72.7161,9.19185,72.448,9.37785,72.7309,9.44461,72.7009,9.30003
74.2253,9.23762,74.3372,9.22458,73.7962,9.49773,73.9783,8.91999,74.3225,9.25051,73.9984,9.02063,74.1689,9.14822,73.8957,9.33957,74.1828,9.38364,74.1521,9.2336
75.6797,9.18788,75.7926,9.18038,75.2412,9.45513,75.4307,8.88076,75.7779,9.22021,75.4484,8.97099,75.6216,9.09925,75.3437,9.29472,75.635,9.29254,75.6035,9.13132
77.1336,9.13012,77.248,9.13439,76.686,9.40832,76.8831,8.8369,77.2331,9.18624,76.8984,8.91353,77.0749,9.04679,76.7914,9.23767,,,,
78.5883,9.06389,78.7037,9.08525,78.1308,9.35946,78.3358,8.79032,78.6888,9.14645,78.3484,8.85405,78.5278,8.99038,78.2394,9.0723,,,,
80.0425,8.98974,80.159,9.02704,79.5757,9.30643,79.7881,8.73928,80.1441,9.10023,79.7982,8.79159,79.9804,8.92794,,,,,,
81.4963,8.9154,81.6147,8.97044,81.0204,9.24981,81.2407,8.68468,81.5996,9.05105,81.2481,8.72584,81.4336,8.86407,,,,,,
82.9511,8.84792,83.0704,8.91888,82.4653,9.19418,82.6934,8.62729,83.0553,9.00074,82.6982,8.65682,82.8862,8.79914,,,,,,
84.4052,8.77801,84.5259,8.86683,83.9101,9.14005,84.1459,8.57213,84.5107,8.94562,84.1478,8.56837,84.3392,8.73891,,,,,,
,,85.9816,8.82841,85.3551,9.08913,85.5987,8.52699,85.9663,8.89426,,,85.7923,8.6815,,,,,,
,,87.4369,8.80612,86.8,9.05104,87.0509,8.48963,87.4216,8.83873,,,,,,,,,,
,,88.8924,8.80608,88.2448,9.02558,88.5034,8.44803,88.877,8.78765,,,,,,,,,,
,,90.3481,8.82227,89.6896,9.00912,,,90.3327,8.73441,,,,,,,,,,
,,91.8033,8.84788,91.1346,8.93366,,,91.788,8.4242,,,,,,,,,,
,,93.2591,8.87937,,,,,,,,,,,,,,,,
,,94.7148,8.90861,,,,,,,,,,,,,,,,
,,96.1702,8.93638,,,,,,,,,,,,,,,,
,,97.6258,8.9578,,,,,,,,,,,,,,,,
,,99.0812,8.97213,,,,,,,,,,,,,,,,
,,100.537,8.97584,,,,,,,,,,,,,,,,
,,101.992,8.95017,,,,,,,,,,,,,,,,
,,103.277,8.50831,,,,,,,,,,,,,,,,

File: Tensile_testing_LDPE_MD_Data_MD_strain_percent_stress_MPa.csv
Strain1[%],Stress1[MPa],Strain2,Stress2,Strain3,Stress3,Strain4,Stress4,Strain5,Stress5,Strain6,Stress6,Strain7,Stress7,Strain8,Stress8,Strain9,Stress9,Strain10,Stress10
0,0.616721,0,0.599233,0,0.592412,0,0.587826,0,0.600018,0,0.606388,0,0.595773,0,0.60945,0,0.608053,0,0.605325
2.91948e-06,0.589906,-2.75063e-06,0.575594,9.27674e-07,0.571559,1.09098e-06,0.579038,2.69624e-06,0.577149,-2.77184e-06,0.579539,-4.73354e-06,0.57781,7.70181e-06,0.581794,-9.14783e-07,0.5813,-2.92896e-06,0.57826
0.828575,2.91522,0.821389,2.72466,0.784395,2.59268,0.349865,1.62015,0.753093,2.44822,0.781234,2.55391,0.715348,2.41335,0.743131,2.60485,0.86842,2.90625,0.315024,1.52069
1.91224,5.07043,1.90308,4.72136,1.87023,4.55526,1.43528,3.85953,1.83462,4.3568,1.86288,4.48522,1.80052,4.3782,1.8268,4.65823,1.95138,4.96926,1.39836,3.78635
2.99591,6.74303,2.98449,6.28126,2.95578,6.08049,2.52061,5.55506,2.91602,5.84617,2.94409,5.98077,2.88538,5.89091,2.91037,6.2392,3.03489,6.57964,2.48163,5.47503
4.07964,8.06728,4.06576,7.52702,4.04135,7.29687,3.60594,6.87182,3.99739,7.03948,4.02533,7.17275,3.97021,7.09291,3.99393,7.49184,4.1185,7.86791,3.56465,6.80684
5.16351,9.13373,5.14748,8.53801,5.12737,8.28171,4.69147,7.94107,5.0792,8.01141,5.10671,8.13757,5.05552,8.06896,5.07792,8.49607,5.20178,8.91296,4.64778,7.87806
6.24712,9.97907,6.22918,9.34206,6.21302,9.07247,5.77666,8.7811,6.1608,8.78938,6.18802,8.90563,6.14051,8.85047,6.16163,9.29428,6.28509,9.74403,5.73105,8.74078
7.33085,10.6328,7.31076,9.97326,7.29884,9.68534,6.86181,9.44867,7.24227,9.3976,7.2693,9.49978,7.22554,9.45882,7.2454,9.91218,7.36859,10.3919,6.81415,9.41526
8.41445,11.1278,8.39225,10.4539,8.38459,10.158,7.94749,9.95325,8.32382,9.86487,8.35078,9.95506,8.31066,9.92659,8.32895,10.38,8.4518,10.8881,7.8976,9.93475
9.49822,11.5093,9.47375,10.8283,9.47011,10.5242,9.03269,10.3438,9.40542,10.2309,9.43231,10.3128,9.39554,10.2902,9.41276,10.7435,9.5351,11.2718,8.9809,10.3357
10.582,11.8096,10.5552,11.1239,10.5557,10.8152,10.118,10.6447,10.4868,10.5197,10.5135,10.594,10.4803,10.5771,10.4964,11.0293,10.6188,11.5731,10.0637,10.6495
11.6658,12.046,11.6369,11.3638,11.6417,11.0492,11.2033,10.8878,11.5685,10.7522,11.5947,10.8202,11.5656,10.8071,11.5802,11.2583,11.7021,11.8179,11.147,10.8955
12.7495,12.2397,12.7185,11.5608,12.7276,11.2431,12.2885,11.0848,12.6502,10.9483,12.6762,11.0101,12.6509,10.9982,12.6641,11.4462,12.7855,12.0173,12.2302,11.099
13.833,12.4015,13.8002,11.7292,13.8132,11.4074,13.3737,11.2502,13.7318,11.114,13.7576,11.1709,13.7358,11.1607,13.7477,11.6055,13.8688,12.1831,13.3134,11.2703
14.9168,12.542,14.8818,11.8741,14.8988,11.5503,14.4592,11.3946,14.8132,11.2562,14.839,11.3098,14.8207,11.3029,14.8313,11.748,14.9521,12.3277,14.3967,11.4128
16.0005,12.6617,15.9632,12.0027,15.9847,11.6763,15.5447,11.5192,15.8947,11.3843,15.9205,11.4355,15.9059,11.4255,15.915,11.8708,16.0356,12.4536,15.4799,11.5393
17.0844,12.7708,17.0447,12.1173,17.0702,11.7922,16.63,11.6319,16.9763,11.5005,17.0016,11.5487,16.9905,11.5389,16.9989,11.9828,17.119,12.5673,16.5628,11.6549
18.1682,12.8757,18.1265,12.2263,18.156,11.9015,17.7152,11.738,18.0579,11.6102,18.0829,11.6548,18.0757,11.645,18.0827,12.09,18.2025,12.6737,17.6459,11.76135
19.2517,12.9721,19.2082,12.3353,19.242,12.0053,18.8005,11.8416,19.1397,11.7162,19.1644,11.7601,19.161,11.748,19.1664,12.1943,19.2858,12.7753,18.7294,11.8635
20.3354,13.067,20.2896,12.4393,20.3275,12.1074,19.8858,11.9415,20.2213,11.8212,20.2458,11.863,20.2459,11.8501,20.25,12.2938,20.3691,12.8781,19.8126,11.9601
21.4191,13.164,21.3712,12.5446,21.413,12.2152,20.9712,12.0419,21.3025,11.9272,21.3272,11.9687,21.3307,11.9525,21.3336,12.3973,21.4527,12.9808,20.8957,12.0597
22.5029,13.2656,22.4527,12.6543,22.4988,12.3238,22.0568,12.1453,22.3843,12.0339,22.4086,12.0753,22.4158,12.0579,22.4174,12.5027,22.5359,13.0847,21.9789,12.1618
23.5866,13.365,23.5344,12.7647,23.5846,12.4338,23.1418,12.2535,23.4658,12.1408,23.4899,12.1812,23.5009,12.1633,23.5012,12.6083,23.6195,13.1932,23.062,12.2681
24.6704,13.4655,24.6159,12.8759,24.6704,12.5431,24.2271,12.3566,24.5473,12.2512,24.5711,12.2892,24.586,12.2729,24.5848,12.7136,24.7028,13.3029,24.1451,12.377
25.7539,13.5706,25.6976,12.9876,25.7562,12.657,25.3125,12.4649,25.629,12.3631,25.6526,12.4001,25.6711,12.3828,25.6686,12.8232,25.786,13.4108,25.2285,12.4854
26.8375,13.6762,26.779,13.1028,26.8417,12.7732,26.3979,12.576,26.7105,12.4749,26.7341,12.5103,26.7559,12.4958,26.7523,12.9322,26.8693,13.5237,26.3119,12.5982
27.9214,13.7804,27.8605,13.2134,27.9274,12.8871,27.4833,12.6853,27.7918,12.5872,27.8154,12.6202,27.8409,12.6052,27.8358,13.0412,27.9528,13.6344,27.3948,12.709
29.0053,13.8875,28.942,13.3277,29.0132,13.0002,28.5687,12.7955,28.8734,12.7001,28.8965,12.733,28.926,12.7192,28.9196,13.148,29.0363,13.7448,28.478,12.8216
30.0888,13.995,30.0236,13.4414,30.0991,13.1153,29.6539,12.9066,29.9552,12.8155,29.9778,12.8453,30.0111,12.8308,30.0036,13.2586,30.1197,13.858,29.5612,12.9324
31.1725,14.1023,31.1053,13.5564,31.1848,13.2276,30.7389,13.0193,31.0368,12.9294,31.0593,12.9553,31.0961,12.9415,31.0873,13.3691,31.2031,13.9716,30.6444,13.0415
32.2563,14.2086,32.1871,13.668,32.2706,13.3406,31.8244,13.1286,32.1183,13.0435,32.1408,13.0679,32.1812,13.0528,32.1709,13.4788,32.2862,14.0844,31.7279,13.1529
33.3399,14.3156,33.2682,13.777,33.3562,13.452,32.9099,13.2379,33.1997,13.1526,33.22212,13.1771,33.2662,13.1628,33.2546,13.5862,33.3697,14.1925,32.811,13.2608
34.4237,14.4159,34.3498,13.886,34.4418,13.558,33.9952,13.3434,34.2813,13.2573,34.3034,13.2842,34.3511,13.2681,34.3383,13.692,34.4532,14.2976,33.8939,13.365
35.5075,14.5166,35.4315,13.9903,35.5277,13.6598,35.0804,13.4454,35.3628,13.3604,35.3848,13.3881,35.4362,13.37,35.422,13.7937,35.5367,14.4001,34.977,13.4648
36.5911,14.6115,36.5132,14.0892,36.6137,13.7611,36.1657,13.5429,36.4446,13.4612,36.4661,13.4893,36.5215,13.4705,36.5059,13.8934,36.6199,14.5012,36.0604,13.5654
37.6748,14.7058,37.5948,14.1861,37.6992,13.8584,37.251,13.6397,37.5261,13.5561,37.5475,13.5843,37.6063,13.5664,37.5897,13.9883,37.7033,14.5933,37.1435,13.6609
38.7585,14.7946,38.6764,14.2797,38.7848,13.9489,38.3364,13.7333,38.6075,13.647,38.629,13.6772,38.6913,13.6555,38.6732,14.079,38.7865,14.6875,38.2268,13.7528
39.8422,14.8842,39.7578,14.3696,39.8705,14.0408,39.4219,13.8214,39.6892,13.7412,39.7104,13.7695,39.7763,13.7463,39.7571,14.1671,39.87,14.7796,39.3101,13.8489
40.9262,14.9706,40.8393,14.4615,40.9562,14.1299,40.5071,13.9123,40.7707,13.8314,40.7916,13.861,40.8613,13.8335,40.8407,14.2554,40.9536,14.867,40.393,13.9418
42.0099,15.0528,41.9211,14.5446,42.042,14.2169,41.5925,13.9953,41.8524,13.9152,41.873,13.9441,41.9462,13.9188,41.9244,14.3379,42.0371,14.9504,41.4762,14.0285
43.0934,15.126,43.0028,14.6235,43.1278,14.2959,42.6777,14.0761,42.9341,13.9941,42.9544,14.0235,43.0315,13.9934,43.0082,14.4142,43.1203,15.0287,42.5596,14.1074
44.177,15.1976,44.0842,14.6995,44.2135,14.3743,43.763,14.1488,44.0156,14.0696,44.0358,14.1019,44.1165,14.0676,44.092,14.4868,44.2035,15.1023,43.6428,14.1852
45.2608,15.2675,45.1659,14.7698,45.2991,14.4477,44.8485,14.2221,45.0968,14.1396,45.1172,14.174,45.2014,14.1375,45.1753,14.555,45.2869,15.1724,44.726,14.2554
46.3445,15.3305,46.2472,14.8401,46.3848,14.5152,45.9339,14.2899,46.1784,14.2066,46.1985,14.2438,46.2863,14.2034,46.2591,14.6222,46.3704,15.2388,45.8092,14.324
47.4282,15.391,47.3288,14.9056,47.4705,14.5793,47.0192,14.3551,47.2602,14.2734,47.2798,14.3117,47.3713,14.2694,47.343,14.6864,47.4539,15.3038,46.8923,14.3889
48.5121,15.4513,48.4106,14.9713,48.5564,14.6413,48.1045,14.419,48.3417,14.3361,48.3611,14.375,48.4565,14.3333,48.4267,14.7481,48.5372,15.3677,47.9754,14.4543
49.5958,15.5062,49.4922,15.0316,49.6423,14.7007,49.1898,14.4788,49.4232,14.3919,49.4425,14.4336,49.5417,14.3938,49.5104,14.8073,49.6205,15.4249,49.0587,14.5146
50.6792,15.5549,50.5735,15.0865,50.7278,14.7545,50.2752,14.538,50.5048,14.4473,50.5239,14.4865,50.6266,14.4478,50.5942,14.8589,50.7039,15.4808,50.1421,14.5696
51.7631,15.5994,51.655,15.1379,51.8134,14.8057,51.3604,14.5924,51.5863,14.5002,51.6053,14.5404,51.7114,14.5014,51.6777,14.9086,51.7873,15.533,51.2253,14.6225
52.8469,15.6399,52.7368,15.1864,52.8993,14.8514,52.4459,14.6498,52.6677,14.5497,52.6867,14.5887,52.7966,14.5488,52.7614,14.9523,52.8707,15.579,52.3083,14.6718
53.9305,15.6762,53.8181,15.2312,53.985,14.8934,53.531,14.7018,53.7495,14.5956,53.7677,14.634,53.8816,14.5924,53.8454,14.9949,53.9542,15.624,53.3916,14.7146
55.0143,15.7111,54.8999,15.2742,55.0709,14.936,54.6163,14.7467,54.8311,14.6396,54.8492,14.6754,54.9667,14.6337,54.9291,15.0323,55.0377,15.6682,54.4746,14.7573
56.0979,15.7435,55.9816,15.3101,56.1567,14.9748,55.7017,14.7842,55.9127,14.6801,55.9308,14.7142,56.0519,14.6702,56.0127,15.0686,56.1207,15.7052,55.558,14.8
57.1815,15.7755,57.0631,15.3473,57.2422,15.0134,56.787,14.8221,56.9942,14.719,57.0122,14.7492,57.1367,14.7082,57.0965,15.1058,57.2041,15.7421,56.6413,14.8378
58.2653,15.8004,58.1444,15.3769,58.3279,15.0449,57.8724,14.8546,58.0756,14.7522,58.0935,14.7797,58.2218,14.7431,58.1801,15.1358,58.2877,15.7762,57.7243,14.8734
59.3493,15.8242,59.2262,15.4045,59.4137,15.0771,58.9578,14.8815,59.1572,14.7841,59.1748,14.8089,59.3067,14.7781,59.2639,15.164,59.371,15.8067,58.8072,14.9044
60.433,15.8463,60.3078,15.4217,60.4994,15.1066,60.043,14.9063,60.239,14.8131,60.2562,14.8336,60.3918,14.8095,60.3479,15.1897,60.4545,15.8312,59.8906,14.935
61.5166,15.8619,61.3894,15.419,61.5852,15.1325,61.1281,14.9228,61.3206,14.838,61.3374,14.8559,61.4769,14.8264,61.4315,15.2105,61.5379,15.8535,60.9738,14.9579
62.6004,15.8766,62.4711,15.2816,62.6709,15.152,62.2137,14.9235,62.4022,14.8559,62.419,14.8763,62.562,14.8025,62.515,15.2238,62.621,15.8687,62.0571,14.9764
63.6838,15.8843,,,63.7564,15.1732,63.299,14.8643,63.4836,14.8735,63.5005,14.8948,,,63.5987,15.231,63.7047,15.8768,63.1403,14.9913
64.7676,15.8796,,,64.8421,15.185,,,64.5652,14.8785,64.5817,14.9027,,,64.6825,15.2243,64.788,15.8694,64.2233,14.9791
65.8516,15.7715,,,65.928,15.1899,,,65.6467,14.8631,65.6631,14.9016,,,65.7661,15.1807,65.8714,15.7075,65.3065,14.8611
,,,,67.0139,15.171,,,,,66.7443,14.8704,,,,,,,,
,,,,67.9567,14.9561,,,,,,,,,,,,,,