Folder: TIF326-Physics-of-materials-Lab/Tensile Al7075/raw-CSV

File: Group1-130Cfor2h.is_tens.raw.csv
Time sec;Extension mm;Strain 1 %;Load N
0;-0.00012;-4.196304e-005;-16.88363
0.7;-0.00012;0.000302747;-17.22627
1.4;-3.999999e-005;0.0002303015;-17.15846
2.1;0.00016;0.0001884193;-16.82164
2.8;0.00116;0.000124855;-15.38093
3.5;0.00344;0.0009260179;-2.404522
4.2;0.00876;0.00634197;83.6707
4.9;0.01892;0.01638304;252.8758
5.6;0.03504;0.0328615;525.8291
6.3;0.0584;0.0561703;915.912
7;0.08944;0.08722645;1424.014
7.7;0.12632;0.1252597;2019.328
8.4;0.16588;0.1641789;2649.203
9.1;0.20636;0.2035221;3280.337
9.8;0.24752;0.2445434;3917.461
10.5;0.28652;0.2830606;4517.401
11.2;0.32252;0.3184861;5065.044
11.9;0.35584;0.3500028;5565.177
12.6;0.38468;0.3768175;5993.387
13.3;0.40772;0.3988413;6337.553
14;0.42572;0.4165027;6601.252
14.7;0.43928;0.4304382;6798.16
15.4;0.4492;0.4395058;6941.397
16.1;0.45628;0.4459722;7040.675
16.8;0.46104;0.4503635;7106.429
17.5;0.46456;0.4533302;7152.342
18.2;0.46796;0.4563346;7199.652
18.9;0.4722;0.4602598;7257.868
19.6;0.47784;0.4651773;7339.073
20.3;0.48524;0.4725508;7447.506
21;0.49564;0.4821715;7599.775
21.7;0.50888;0.494782;7791.382
22.4;0.52392;0.5086463;8003.993
23.1;0.54048;0.5247173;8237.43
23.8;0.55936;0.5437487;8498.678
24.5;0.58156;0.5658333;8800.472
25.2;0.60736;0.5916887;9135.747
25.9;0.6360801;0.6236143;9485.959
26.6;0.665;0.6592891;9796.886
27.3;0.6925601;0.6980652;10044.83
28;0.7176001;0.7397186;10230.11
28.7;0.73868;0.7766852;10356.59
29.4;0.75564;0.8082705;10439.87
30.1;0.76772;0.833595;10485.81
30.8;0.77488;0.8496535;10496.96
31.5;0.77776;0.8574762;10481.33
32.2;0.778;0.8606452;10452.12
32.9;0.778;0.8625345;10429.54
33.6;0.778;0.8636363;10413.52
34.3;0.778;0.8642976;10400.66
35;0.778;0.8650711;10390.27
35.7;0.778;0.8657183;10381.53
36.4;0.77828;0.8658623;10374.23
37.1;0.77968;0.8674781;10378.88
37.8;0.78384;0.8724154;10439.18
38.5;0.7918;0.8820238;10548.3
39.2;0.80444;0.9004116;10680.73
39.9;0.82088;0.9356928;10745.94
40.6;0.84056;0.9820193;10787.35
41.154;0.85732;1.022018;10824.89
41.854;0.88112;1.077595;10880.16
42.554;0.90828;1.141873;10936.7
43.254;0.93844;1.213147;10991.38
43.954;0.97028;1.289676;11040.42
44.654;1.00548;1.372453;11097.32
45.354;1.04308;1.446665;11145.49
46.054;1.08104;1.517248;11192.75
46.754;1.12068;1.591892;11240.06
47.454;1.16188;1.672235;11284.12
48.154;1.20256;1.757899;11320.75
48.854;1.2414;1.845647;11356.29
49.554;1.27816;1.928353;11391.5
50.254;1.3128;2.005676;11418.8
50.954;1.34252;2.069757;11437.84
51.654;1.36956;2.129432;11463.07
52.354;1.39572;2.186467;11490.75
53.054;1.42172;2.242247;11517.38
53.754;1.44872;2.302683;11544.36
54.454;1.47528;2.360773;11563.6
55.154;1.50296;2.4236;11589.55
55.854;1.53276;2.487606;11617.05
56.554;1.56532;2.557099;11643.09
57.254;1.59936;2.631383;11662.74
57.954;1.6346;2.708521;11687.14
58.654;1.67136;2.788271;11711.97
59.354;1.70896;2.870863;11734.5
60.054;1.74468;2.950292;11748.88
60.754;1.77972;3.02676;11774.17
61.454;1.81476;3.103859;11796.34
62.154;1.84628;3.172751;11805
62.854;1.87448;3.234737;11820.63
63.554;1.90248;3.29342;11847.08
64.254;1.9316;3.355975;11872.91
64.954;1.9618;3.42098;11893.67
65.654;1.99292;3.48627;11911.86
66.354;2.0242;3.553229;11928.68
67.054;2.05624;3.620683;11949.07
67.754;2.0906;3.69458;11973.02
68.454;2.12588;3.771735;11985.52
69.154;2.161;3.848681;12002.54
69.854;2.19592;3.922355;12016.05
70.554;2.2306;3.996607;12034.66
71.254;2.26384;4.070045;12045.11
71.954;2.29608;4.139189;12065.01
72.654;2.32896;4.210145;12081.78
73.354;2.36096;4.281646;12095.42
74.054;2.39216;4.351897;12109.11
74.754;2.42184;4.418411;12120.71
75.454;2.45092;4.484139;12137.56
76.154;2.48056;4.549469;12155.57
76.854;2.51048;4.61385;12170.63
77.554;2.54024;4.680464;12183.34
78.254;2.57084;4.746664;12200.34
78.954;2.60284;4.818128;12216.88
79.654;2.63496;4.892033;12226.71
80.354;2.66648;4.964359;12236.27
81.054;2.69792;5.036745;12247.89
81.754;2.72968;5.109172;12261.72
82.454;2.76212;5.185239;12274.65
83.154;2.79288;5.256216;12278.13
83.854;2.82212;5.325186;12286.78
84.554;2.85112;5.391487;12301.81
85.254;2.88084;5.456558;12318
85.954;2.91068;5.524472;12328.65
86.654;2.94036;5.592068;12339.59
87.354;2.97104;5.662461;12353.1
88.054;3.00216;5.734911;12364.62
88.754;3.03392;5.810162;12374.56
89.454;3.0648;5.882765;12379.36
90.154;3.09636;5.956167;12392.44
90.854;3.1276;6.031659;12396.14
91.554;3.15632;6.100351;12396.94
92.254;3.18392;6.164633;12404.08
92.954;3.21132;6.229215;12417.93
93.654;3.23916;6.293079;12431.88
94.354;3.26768;6.361336;12446.1
95.054;3.2976;6.43262;12458.75
95.754;3.327;6.503185;12459.31
96.454;3.35608;6.571348;12466.73
97.154;3.38632;6.641503;12480.18
97.854;3.41772;6.715187;12490.68
98.554;3.44972;6.791317;12495.81
99.254;3.48112;6.868538;12498.16
99.954;3.51104;6.942859;12497.79
100.654;3.54036;7.016303;12504.64
101.354;3.5682;7.083609;12506.86
102.054;3.5948;7.146388;12514.72
102.754;3.6224;7.2116;12529.76
103.454;3.64964;7.28015;12534.73
104.154;3.67688;7.349562;12542.07
104.854;3.70436;7.417758;12550.28
105.554;3.731;7.485037;12552.49
106.254;3.75772;7.551738;12560.92
106.954;3.78536;7.620047;12570.41
107.654;3.81388;7.691692;12580.47
108.354;3.84264;7.76637;12581.91
109.054;3.87036;7.836876;12580.48
109.754;3.89856;7.908678;12589.31
110.454;3.9266;7.981423;12592.49
111.154;3.9542;8.05341;12594.85
111.854;3.98148;8.124363;12597.18
112.554;4.00772;8.193282;12598.02
113.254;4.03412;8.261149;12607.28
113.954;4.061;8.331396;12614.14
114.654;4.08744;8.402018;12617.96
115.354;4.11376;8.471034;12620.71
116.054;4.13908;8.539869;12620.45
116.754;4.16432;8.607393;12625.79
117.454;4.18964;8.674608;12630.63
118.154;4.21556;8.744511;12639.76
118.854;4.242;8.816571;12644.69
119.554;4.26824;8.890474;12646.36
120.254;4.29432;8.962316;12648.2
120.954;4.32008;9.035437;12648.66
121.654;4.34584;9.107061;12651.78
122.354;4.37128;9.177694;12653.04
123.054;4.3968;9.248948;12658.85
123.754;4.42204;9.321967;12657.65
124.454;4.44484;9.389661;12646.73
125.154;4.46644;9.453423;12647.19
125.854;4.48852;9.517104;12660.14
126.554;4.51116;9.582396;12668.28
127.254;4.53432;9.649777;12676.64
127.954;4.55812;9.719266;12680.91
128.654;4.5828;9.790476;12689.03
129.354;4.60852;9.86753;12691.65
130.054;4.63344;9.94542;12684.6
130.754;4.65676;10.01833;12673.67
131.454;4.67944;10.08799;12673.88
132.154;4.7018;10.15697;12676.49
132.854;4.72368;10.2257;12679.65
133.554;4.74596;10.2949;12686.23
134.254;4.7684;10.3666;12689.85
134.954;4.78968;10.43594;12683.01
135.654;4.80992;10.50196;12680.26
136.354;4.83012;10.56754;12683.63
137.054;4.85008;10.63245;12686.71
137.754;4.87016;10.69809;12690.54
138.454;4.89172;10.76723;12706.35
139.154;4.9148;10.8437;12714.91
139.854;4.9378;10.92368;12708.34
140.554;4.9596;11.00218;12696.03
141.254;4.98076;11.0788;12691.81
141.954;5.00064;11.15106;12683.56
142.654;5.01924;11.21783;12677.88
143.354;5.03624;11.28054;12670.59
144.054;5.05248;11.33668;12670.82
144.754;5.06932;11.39468;12684.48
145.454;5.08736;11.45525;12702.79
146.154;5.10744;11.52417;12721.6
146.854;5.12908;11.60242;12730.09
147.554;5.1516;11.68923;12724.15
148.254;5.17304;11.77644;12703.57
148.954;5.19248;11.85682;12684.27
149.654;5.20968;11.92818;12668.59
150.354;5.22436;11.98804;12653.02
151.054;5.238481;12.04259;12653.44
151.754;5.25292;12.0955;12668.45
152.454;5.26936;12.15167;12697.35
153.154;5.28836;12.22;12725.11
153.854;5.30868;12.29927;12729.71
154.554;5.32916;12.38565;12717.21
155.254;5.34916;12.47403;12699.38
155.954;5.36756;12.55691;12678.54
156.654;5.383521;12.62908;12658.44
157.354;5.3978;12.69121;12647.84
158.054;5.41164;12.74802;12651.23
158.754;5.425561;12.80462;12661.38
159.454;5.43972;12.861;12674.06
160.154;5.45524;12.92255;12692.67
160.854;5.47256;12.99203;12710.06
161.554;5.491;13.07498;12711.09
162.254;5.509401;13.16299;12692.34
162.954;5.5272;13.25076;12675.59
163.654;5.54348;13.33282;12655.55
164.354;5.55804;13.40421;12639.73
165.054;5.57012;13.46592;12621.23
165.754;5.58088;13.51715;12612.95
166.454;5.59216;13.56507;12625.11
167.154;5.6052;13.61674;12656.51
167.854;5.6206;13.67903;12693.05
168.554;5.63828;13.76024;12708.76
169.254;5.656841;13.85685;12690.79
169.954;5.674401;13.9582;12651.08
170.654;5.6902;14.0467;12620.82
171.354;5.702641;14.11773;12591.98
172.054;5.71216;14.1718;12568.59
172.754;5.72012;14.21325;12556.76
173.454;5.7286;14.25066;12567.15
174.154;5.73972;14.29195;12612.62
174.854;5.75428;14.34569;12676.85
175.554;5.77352;14.42941;12718.02
176.254;5.79556;14.56322;12660.31
176.954;5.815;14.6943;12578.61
177.654;5.82924;14.78177;12537.1
178.354;5.83788;14.83689;12501.02
179.054;5.84348;14.87292;12472.91
179.754;5.8486;14.89974;12464.48
180.454;5.856;14.92607;12497.29
181.154;5.868;14.9623;12584.07
181.854;5.88684;15.02415;12701.58
182.554;5.91012;15.16607;12650.9
183.254;5.93096;15.317;12520.34
183.954;5.94628;15.40771;12489.48
184.654;5.957001;15.46981;12472.9
185.354;5.96408;15.51285;12451.47
186.054;5.96956;15.54444;12438.77
186.754;5.97628;15.57383;12458.95
187.454;5.98672;15.60935;12526.88
188.154;6.0026;15.66446;12624.19
188.854;6.023;15.78467;12605.61
189.554;6.04216;15.93574;12464.03
190.254;6.05736;16.02778;12435.72
190.954;6.06828;16.09224;12421.65
191.654;6.07624;16.13981;12408.02
192.354;6.0828;16.17569;12402.85
193.054;6.09016;16.20988;12421.41
193.754;6.09984;16.24795;12468.63
194.454;6.11396;16.30572;12538.93
195.154;6.13172;16.42022;12499.52
195.854;6.14828;16.55113;12378.54
196.554;6.16092;16.63054;12351.48
197.254;6.17036;16.68737;12340.9
197.954;6.179;16.73276;12347.28
198.654;6.18948;16.7812;12382.82
199.354;6.20252;16.84433;12420.81
200.054;6.21712;16.93999;12385.92
200.754;6.23;17.04082;12305.13
201.454;6.23968;17.1071;12270.29
202.154;6.24804;17.15623;12266.2
202.854;6.25672;17.20098;12282.43
203.554;6.26716;17.25197;12314.26
204.254;6.28044;17.32614;12326.36
204.954;6.29488;17.43659;12248.62
205.616;6.30668;17.50428;11974.39
205.63;6.31144;15.94937;8075.521
205.644;6.31768;13.67732;3581.511

File: Group3-190Cfor2h.is_tens.raw.csv
Time sec;Extension mm;Strain 1 %;Load N
0;0;-0.0005171917;27.13142
0.5;0;-3.973219e-006;27.06204
1;0;0.0001516485;27.09
1.5;0.00024;8.175102e-005;27.05817
2;0.00076;0.0001865606;27.63804
2.5;0.00156;0.0002374953;29.06051
3;0.00276;0.0003437257;30.98211
3.5;0.00468;0.0008117669;36.72599
4;0.00708;0.001339955;46.55384
4.5;0.01088;0.00333452;80.13726
5;0.0166;0.009221931;169.4138
5.5;0.02568;0.01913243;322.8015
6;0.03944;0.03286181;551.9939
6.5;0.058;0.05098473;854.7893
7;0.08048;0.07361655;1221.063
7.5;0.10548;0.09844586;1620.688
8;0.13248;0.1258574;2046.59
8.5;0.16144;0.1534582;2499.411
9;0.19196;0.1833641;2974.448
9.5;0.22356;0.2156447;3460.978
10;0.2546;0.2471628;3934.836
10.5;0.28476;0.2761074;4389.428
11;0.31404;0.304312;4826.928
11.5;0.34212;0.33316;5243.698
12;0.36824;0.35932;5623.529
12.5;0.391;0.3817359;5946.801
13;0.41072;0.4024309;6217.358
13.5;0.4274;0.4205755;6437.567
14;0.44092;0.4365223;6602.766
14.5;0.45168;0.4495625;6725.375
15;0.45968;0.4599902;6810.971
15.5;0.46512;0.466826;6864.478
16;0.4688;0.471636;6898.289
16.5;0.4708;0.4744972;6912.075
17;0.47172;0.475906;6915.741
17.5;0.4718;0.4764304;6911.393
18;0.4718;0.476553;6906.763
18.5;0.4718;0.4766589;6902.688
19;0.4718;0.4766594;6899.277
19.5;0.47188;0.4766766;6896.5
20;0.47216;0.4767064;6895.05
20.5;0.47288;0.4768655;6897.571
21;0.47444;0.4787176;6918.953
21.5;0.4774;0.4825785;6961.227
22;0.48204;0.4883422;7017.014
22.5;0.48884;0.4987149;7082.565
23;0.49748;0.5131579;7148.636
23.5;0.50716;0.5315467;7212.936
24;0.51808;0.5530766;7276.426
24.5;0.53012;0.5767914;7334.823
25;0.54296;0.6039824;7387.172
25.5;0.55588;0.6328891;7432.125
26;0.5686;0.6616331;7470.218
26.5;0.58048;0.6886216;7502.323
27;0.59152;0.7136065;7528.821
27.5;0.60076;0.7354815;7548.138
28;0.60848;0.7529991;7563.714
28.5;0.61448;0.7665779;7573.819
29;0.619;0.7777099;7579.827
29.5;0.6221201;0.783937;7581.287
30;0.62404;0.7888802;7578.258
30.5;0.6252;0.791553;7573.983
31;0.6258;0.7936504;7567.935
31.5;0.62628;0.7946778;7562.723
32;0.62676;0.7956438;7560.127
32.5;0.62748;0.7970362;7561.682
33;0.62872;0.7986578;7572.559
33.5;0.6306;0.8017079;7590.862
34;0.6334401;0.8060209;7617.488
34.5;0.63748;0.8124434;7646.269
35;0.64316;0.824054;7667.197
35.5;0.6504;0.8414638;7674.786
36;0.65892;0.8626765;7682.022
36.5;0.66836;0.8848362;7692.648
37;0.6786401;0.9093297;7706.389
37.5;0.68932;0.9342245;7720.938
38;0.70004;0.9593721;7734.161
38.5;0.70996;0.9806111;7746.79
38.998;0.7192801;1.000066;7760.604
39.4;0.72672;1.015755;7773.028
39.9;0.73676;1.035979;7791.527
40.4;0.74872;1.060748;7811.216
40.9;0.76332;1.089779;7830.817
41.4;0.7804;1.123285;7853.03
41.9;0.80068;1.164865;7879.453
42.4;0.82516;1.212676;7911.266
42.9;0.854;1.267355;7946.509
43.4;0.88564;1.327094;7986.594
43.9;0.91856;1.387821;8028.799
44.4;0.95356;1.450951;8073.493
44.9;0.99048;1.519547;8120.658
45.4;1.02904;1.590057;8168.575
45.9;1.0676;1.659762;8215.916
46.4;1.10512;1.727224;8262.879
46.9;1.14232;1.795646;8309.044
47.4;1.17764;1.858191;8349.489
47.9;1.21132;1.919991;8391.062
48.4;1.24304;1.976508;8428.278
48.9;1.27284;2.027487;8463.144
49.4;1.30056;2.077429;8493.321
49.9;1.3246;2.119001;8521.409
50.4;1.3476;2.157917;8550.28
50.9;1.3706;2.198978;8577.187
51.4;1.39256;2.23651;8600.597
51.9;1.41408;2.273263;8625.362
52.4;1.4354;2.31043;8647.366
52.9;1.45696;2.34737;8672.988
53.4;1.47908;2.386698;8696.514
53.9;1.50256;2.426784;8721.907
54.4;1.5278;2.471245;8747.098
54.9;1.55488;2.519334;8773.357
55.4;1.58292;2.568425;8798.688
55.9;1.61212;2.620821;8826.696
56.4;1.64284;2.674137;8856.771
56.9;1.67516;2.731554;8885.529
57.4;1.70788;2.789246;8914.008
57.9;1.74072;2.847681;8944.204
58.4;1.77396;2.907178;8974.271
58.9;1.80768;2.965874;9003.173
59.4;1.84056;3.025328;9030.144
59.9;1.87252;3.081088;9057.923
60.4;1.90352;3.137675;9083.46
60.9;1.93384;3.192075;9108.26
61.4;1.96288;3.244465;9131.742
61.9;1.99052;3.29409;9154.794
62.4;2.01748;3.344169;9175.766
62.9;2.04368;3.390949;9196.384
63.4;2.0694;3.439173;9216.946
63.9;2.0944;3.485183;9234.986
64.4;2.11836;3.529053;9253.213
64.9;2.14284;3.573443;9273.697
65.4;2.1676;3.619767;9289.908
65.9;2.19152;3.664335;9305.595
66.4;2.21524;3.70762;9323.372
66.9;2.23908;3.753586;9340.534
67.4;2.26332;3.798537;9356.946
67.9;2.28844;3.845954;9375.025
68.4;2.3144;3.894918;9390.526
68.9;2.3416;3.947147;9407.888
69.4;2.36916;3.999824;9422.392
69.9;2.3962;4.053275;9437.042
70.4;2.42356;4.105256;9454.847
70.9;2.45128;4.16008;9470.353
71.4;2.4788;4.214204;9486.099
71.9;2.50648;4.268432;9501.733
72.4;2.53384;4.322398;9515.771
72.9;2.5606;4.376111;9529.608
73.4;2.58712;4.428231;9544.184
73.9;2.61268;4.480428;9554.624
74.4;2.63676;4.527697;9567.958
74.9;2.66124;4.577685;9583.262
75.4;2.6858;4.626599;9595.27
75.9;2.70988;4.676215;9606.054
76.4;2.734;4.72514;9619.306
76.9;2.75768;4.774918;9628.054
77.4;2.78032;4.821074;9638.505
77.9;2.80264;4.867265;9649.335
78.4;2.82508;4.913376;9661.49
78.9;2.84756;4.959488;9671.444
79.4;2.87068;5.008512;9683.143
79.9;2.89404;5.056562;9690.159
80.4;2.91712;5.10577;9699.418
80.9;2.94032;5.154435;9708.641
81.4;2.96396;5.20402;9719.084
81.9;2.98796;5.254324;9727.911
82.4;3.01236;5.30704;9737.472
82.9;3.0366;5.357788;9743.301
83.4;3.06068;5.410587;9752.884
83.9;3.08488;5.46124;9761.891
84.4;3.10944;5.514368;9770.818
84.9;3.13388;5.566591;9778.471
85.4;3.15804;5.619094;9784.91
85.9;3.18152;5.6691;9792.177
86.4;3.20476;5.719132;9799.598
86.9;3.228;5.767988;9808.104
87.4;3.25108;5.818336;9814.584
87.9;3.2742;5.867526;9821.903
88.4;3.2972;5.917652;9827.707
88.9;3.32016;5.966103;9834.869
89.4;3.343;6.016492;9840.623
89.9;3.36604;6.065442;9847.654
90.4;3.38884;6.115539;9853.22
90.9;3.41172;6.164536;9860.025
91.4;3.43452;6.214836;9864.35
91.9;3.45756;6.26481;9871.538
92.4;3.48012;6.315889;9874.149
92.9;3.502;6.364603;9877.608
93.4;3.52392;6.413568;9884.553
93.9;3.5464;6.463114;9891.919
94.4;3.56856;6.513648;9894.858
94.9;3.5908;6.563234;9899.668
95.4;3.613;6.613879;9903.399
95.9;3.63548;6.664985;9909.578
96.4;3.6582;6.717334;9913.627
96.9;3.6808;6.770086;9916.408
97.4;3.70232;6.820898;9916.725
97.9;3.7238;6.870484;9922.428
98.4;3.74524;6.92123;9926.73
98.9;3.7662;6.971635;9928.136
99.4;3.78708;7.020669;9933.58
99.9;3.80828;7.071152;9938.047
100.4;3.82892;7.122076;9938.081
100.9;3.84868;7.170749;9939.399
101.4;3.86832;7.218059;9944.767
101.9;3.88816;7.266867;9948.906
102.4;3.90756;7.313882;9949.566
102.9;3.9262;7.36102;9949.818
103.4;3.94572;7.408419;9957.948
103.9;3.96576;7.459396;9961.573
104.4;3.98572;7.510856;9960.318
104.9;4.00524;7.562145;9961.127
105.4;4.02496;7.612701;9964.128
105.9;4.04504;7.665119;9967.405
106.4;4.06512;7.71847;9967.839
106.9;4.08488;7.772064;9966.508
107.4;4.10364;7.822224;9965.286
107.9;4.12184;7.872093;9965.963
108.4;4.1398;7.919465;9969.242
108.9;4.1576;7.968212;9971.815
109.4;4.17568;8.016765;9975.387
109.9;4.19392;8.067543;9976.488
110.4;4.21228;8.118413;9976.202
110.9;4.23;8.167925;9974.548
111.4;4.24776;8.21704;9976.263
111.9;4.2656;8.266927;9976.835
112.4;4.28308;8.316357;9976.628
112.9;4.30016;8.365437;9975.402
113.4;4.31744;8.414037;9978.037
113.9;4.33476;8.463665;9977.845
114.4;4.35216;8.513785;9977.024
114.9;4.36916;8.56127;9975.965
115.4;4.38656;8.610076;9977.119
115.9;4.40424;8.658408;9977.71
116.4;4.42184;8.706436;9974.199
116.9;4.4398;8.752375;9974.793
117.4;4.4584;8.800183;9975.188
117.9;4.47776;8.847098;9972.758
118.4;4.49752;8.893822;9969.088
118.9;4.5178;8.940957;9966.256
119.4;4.53928;8.988354;9964.57
119.9;4.56152;9.037218;9959.552
120.4;4.58512;9.086186;9956.345
120.9;4.61012;9.133918;9950.224
121.4;4.636;9.178767;9943.628
121.9;4.6632;9.224925;9936.206
122.4;4.69204;9.269969;9926.591
122.9;4.72292;9.317277;9916.767
123.4;4.75628;9.365616;9899.373
123.9;4.79052;9.412715;9882.56
124.4;4.82572;9.456445;9863.818
124.9;4.86368;9.498755;9840.263
125.4;4.90464;9.537844;9807.703
125.9;4.94868;9.571749;9770.387
126.4;4.99656;9.601464;9722.2
126.9;5.04936;9.624972;9662.668
127.4;5.10824;9.64222;9584.959
127.9;5.17508;9.651034;9483.415
128.4;5.25028;9.646814;9345.337
128.742;5.30912;9.405606;8693.421
128.752;5.3162;7.118737;6432.245
128.762;5.32716;3.696054;3869.404
128.768;5.33368;1.779877;2560.194